Folder: YAD/Aldo/Propulsion/Datasets/Batteries

Note: Aldo/Propulsion/README.conv.md
\# Propulsion This subsystem is composed by motors, propellers and ESCs.

\# Requirements The entire propulsion system must generate a thrust of
at least 2 times the weight of the drone, T_tot \> 500 grams. So for a
quadcopter it will consist of 4 units with a thrust of at least 125
grams each.

\# Design

\## Thrust mathematical formula

*T*<sub>*p**r**o**p*</sub>(*I*<sub>*a*</sub>,*ω*) = *V*<sub>*b*</sub> ⋅ *I*<sub>*a*</sub> ⋅ *η*<sub>*p**r**o**p*</sub>
*I*<sub>*a*</sub> can be found solving the following equation:

$$a \\cdot I_a^{\\frac{3}{2}} \\cdot \\eta\_{prop}^{\\frac{3}{2}} + b \\cdot I_a \\cdot \\eta\_{prop} = 0$$
Where: -
*η*<sub>*p**r**o**p*</sub> = *f*(*ω*) = *f*(*V*<sub>*b*</sub>*K*<sub>*V*</sub>) -
$a = - V_b^{\\frac{3}{2}}$ -
$b = V_b^2 \\frac{D\_{prop}}{4} K_V \\tan (\\alpha\_{prop}) \\sqrt{2 \\rho A}$

\### Mathematical steps Given the hypothesis: - The motor resistance can
be considered negligible, so that
*V*<sub>*b*</sub> ≈ *V*<sub>*a*</sub> - Each propeller blade can be
approximated as a plate with a constant pitch and width. \<br\>

Given the following mathematical formulas: -
$\\eta\_{prop} = \\frac{T\_{prop}} {P_e}$ Propeller efficiency -
*P*<sub>*p**r**o**p*</sub> = *T*<sub>*p**r**o**p*</sub>*v*<sub>*p**r**o**p*</sub>
Propeller power -
$v\_{prop} = \\frac{D\_{prop}}{4}\\omega \\tan (\\alpha\_{prop})$
Propeller air velocity - $K_V = \\frac{\\omega} {V_b}$ Motor velocity
constant - *P*<sub>*e*</sub> = *V*<sub>*b*</sub>*I*<sub>*a*</sub>
Electrical power \#### Current equation proof

The current equation can be found by substituting the above formulas in
the following
\[relationship\](https://uav.jreyn.net/quadcopter-design/step-3-static-thrust-and-power):
$$P\_{prop} = \\frac{{T\_{prop}}^{\\frac{3}{2}}} {\\sqrt{2 \\rho A}} \\\\
$$
We can write:
$$T\_{prop} v\_{prop} = \\frac{{(P_e \\eta\_{prop})}^{\\frac{3}{2}}} {\\sqrt{2 \\rho A}} \\\\
P_e \\eta\_{prop} \\frac{D\_{prop}}{4} \\omega \\tan (\\alpha\_{prop}) = \\frac{{(V_b I_a \\eta\_{prop})}^{\\frac{3}{2}}} {\\sqrt{2 \\rho A}} \\\\
V_b I_a \\eta\_{prop} \\frac{D\_{prop}}{4} V_b K_V \\tan (\\alpha\_{prop}) = \\frac{{(V_b I_a \\eta\_{prop})}^{\\frac{3}{2}}} {\\sqrt{2 \\rho A}} \\\\
V_b^2 I_a \\eta\_{prop} \\frac{D\_{prop}}{4} K_V \\tan (\\alpha\_{prop}) \\sqrt{2 \\rho A} = {(V_b I_a \\eta\_{prop})}^{\\frac{3}{2}} \\\\
$$

Gathering the terms and ordering the equation we obtain:
$$a \\cdot I_a^{\\frac{3}{2}} \\cdot \\eta\_{prop}^{\\frac{3}{2}} + b \\cdot I_a \\cdot \\eta\_{prop} = 0$$

File: Batteries.csv
,Unnamed: 0,Unnamed: 0.1,Unnamed: 0.1.1,Unnamed: 0.1.1.1,Capacity (mah),Nominal voltage (V),Cells configuration,Discharge (C),Battery height (mm),Bettry length (mm),Battery width (mm),Battery weight (g),Battery price (â‚¬)
0,0,0,0,0,300,7.4,2S1P,25,13.5,51.5,19.0,20.0,10.0
1,1,1,1,1,450,7.4,2S1P,25,11.0,56.0,31.0,28.0,10.0
2,2,2,2,2,450,11.1,3S1P,25,15.0,56.0,31.0,45.0,18.0
3,3,3,3,3,450,11.1,3S1P,75,22.5,68.0,17.5,57.0,18.0
4,4,4,4,4,450,14.8,4S1P,75,29.0,68.0,17.5,67.0,27.0
5,5,5,5,5,550,3.7,1S1P,15,26.0,44.0,9.0,15.0,5.0
6,6,6,6,6,800,7.4,2S1P,40,15.0,57.0,30.0,50.0,10.0
7,7,7,7,7,800,11.1,3S1P,40,23.0,52.0,30.0,72.0,18.0
8,8,8,8,8,850,11.1,3S1P,45,22.2,60.0,30.4,76.0,18.0
9,9,9,9,9,850,14.8,4S1P,45,29.0,60.0,31.0,99.0,27.0
10,10,10,10,10,900,11.1,3S1P,45,19.5,52.0,33.5,80.0,18.0
11,11,11,11,11,1000,7.4,2S1P,25,14.0,70.0,36.0,70.0,10.0
12,12,12,12,12,1000,11.1,3S1P,25,19.0,72.0,36.0,96.0,18.0
14,14,14,14,14,1050,11.1,3S1P,45,25.0,75.0,20.0,85.0,18.0
15,15,15,15,15,1050,11.1,3S1P,75,19.0,71.0,36.0,98.0,18.0
16,16,16,16,16,1050,14.8,4S1P,45,31.0,75.0,25.0,120.0,27.0
17,17,17,17,17,1050,14.8,4S1P,75,26.0,71.0,36.0,125.0,27.0
18,18,18,18,18,1300,7.4,2S1P,25,17.0,70.0,35.0,88.0,10.0
19,19,19,19,19,1300,11.1,3S1P,25,24.0,70.0,35.0,115.0,18.0
20,20,20,20,20,1300,11.1,3S1P,25,24.0,70.0,35.0,115.0,18.0
21,21,21,21,21,1300,11.1,3S1P,45,22.6,72.0,36.5,119.0,18.0
22,22,22,22,22,1300,11.1,3S1P,75,22.3,72.0,36.0,122.0,18.0
23,23,23,23,23,1300,11.1,3s1p,75,24.5,72.0,36.0,125.0,18.0
24,24,24,24,24,1300,14.8,4s1p,45,29.8,72.0,36.5,154.0,27.0
25,25,25,25,25,1300,14.8,4S1P,75,29.4,72.0,36.0,155.0,27.0
26,26,26,26,26,1300,14.8,4S1P,75,32.0,72.0,36.0,160.0,27.0
27,27,27,27,27,1300,14.8,4S1P,95,32.0,72.0,36.0,172.6,27.0
28,28,28,28,28,1400,11.1,3S1P,45,18.7,86.0,35.5,113.0,18.0
29,29,29,29,29,1400,11.1,3S1P,50,19.5,85.0,35.0,131.0,18.0
31,31,31,31,31,1550,7.4,2S1P,25,17.0,90.0,30.0,102.0,10.0
32,32,32,32,32,1550,11.1,3S1P,25,24.0,91.0,30.0,142.0,18.0
33,33,33,33,33,1550,11.1,3S1P,45,25.0,72.0,36.5,128.0,18.0
34,34,34,34,34,1550,11.1,3S1P,75,27.0,72.0,36.0,136.0,18.0
35,35,35,35,35,1550,11.1,3S1P,75,27.5,72.0,36.0,136.0,18.0
36,36,36,36,36,1550,14.8,4S1P,25,31.66,92.0,30.84,173.0,27.0
37,37,37,37,37,1550,14.8,4S1P,45,33.0,72.0,36.5,178.0,27.0
38,38,38,38,38,1550,14.8,4S1P,75,35.0,72.0,36.0,176.0,27.0
39,39,39,39,39,1550,14.8,4S1P,75,36.0,72.0,36.0,176.0,27.0
41,41,41,41,41,1800,7.4,2S1P,25,17.3,89.79,30.2,100.06,10.0
42,42,42,42,42,1800,11.1,3S1P,25,26.0,93.0,30.0,156.0,18.0
43,43,43,43,43,1800,11.1,3S1P,25,26.0,93.0,30.0,156.0,18.0
44,44,44,44,44,1800,11.1,3S1P,45,20.8,106.0,35.5,158.0,18.0
45,45,45,45,45,1800,11.1,3S1P,75,19.3,105.0,35.0,159.0,18.0
46,46,46,46,46,1800,11.1,3S1P,75,23.0,105.0,35.0,160.0,18.0
47,47,47,47,47,1800,14.8,4S1P,25,33.0,91.0,29.0,190.0,27.0
48,48,48,48,48,1800,14.8,4S1P,45,27.4,106.0,35.5,202.0,27.0
49,49,49,49,49,1800,14.8,4S1P,75,25.4,105.0,35.0,202.0,27.0
50,50,50,50,50,1800,14.8,4S1P,75,30.0,105.0,35.0,207.0,27.0
51,51,51,51,51,2200,7.4,2S1P,25,18.53,106.0,34.0,135.6,10.0
52,52,52,52,52,2200,7.4,2S1P,25,21.0,84.0,32.0,134.0,10.0
53,53,53,53,53,2200,7.4,2S1P,50,20.0,87.2,34.0,130.0,10.0
54,54,54,54,54,2200,11.1,3S1P,25,26.0,107.0,34.0,190.0,18.0
55,55,55,55,55,2200,11.1,3S1P,30,25.0,116.0,35.0,199.0,18.0
56,56,56,56,56,2200,11.1,3S1P,45,26.0,107.0,34.0,207.0,18.0
57,57,57,57,57,2200,11.1,3S1P,60,25.0,106.0,34.0,205.0,18.0
58,58,58,58,58,2200,14.8,4S1P,25,33.78,106.0,34.0,249.0,27.0
59,59,59,59,59,2300,11.1,3S1P,45,23.2,106.0,35.5,179.0,18.0
60,60,60,60,60,2300,14.8,4S1P,45,30.6,106.0,35.5,224.0,27.0
61,61,61,61,61,2600,11.1,3S1P,25,27.0,115.0,34.0,228.0,18.0
62,62,62,62,62,2600,11.1,3S1P,45,23.0,125.0,38.0,239.0,18.0
63,63,63,63,63,2700,11.1,3S1P,25,26.0,106.0,33.0,194.0,18.0
64,64,64,64,64,3300,11.1,3S1P,25,23.0,136.0,42.0,283.0,18.0
65,65,65,65,65,3300,11.1,3S1P,25,23.0,133.0,42.0,284.0,18.0
66,66,66,66,66,3300,14.8,4S1P,25,31.0,136.0,42.0,366.0,27.0
67,67,67,67,67,3300,14.8,4S1P,35,31.0,136.0,42.0,378.0,27.0
69,69,69,69,69,3500,7.4,2S1P,60,18.8,92.8,46.5,149.0,10.0
70,70,70,70,70,3700,14.8,4S1P,45,29.0,136.0,43.5,361.0,27.0
71,71,71,71,71,3800,11.1,3S1P,25,28.0,136.0,42.0,336.0,18.0
72,72,72,72,72,3800,14.8,4S1P,25,36.0,136.0,43.0,418.0,27.0
73,73,73,73,73,4000,7.4,2S1P,25,22.0,139.0,48.0,240.0,10.0
74,74,74,74,74,4000,11.1,3S1P,25,27.0,136.0,42.0,333.0,18.0
75,75,75,75,75,4000,11.1,3S1P,25,25.0,136.0,42.0,328.0,18.0
76,76,76,76,76,4000,14.8,4S1P,25,34.0,137.0,42.0,422.0,27.0
78,78,78,78,78,4200,7.4,2S2P,60,25.0,95.0,46.0,228.0,10.0
79,79,79,79,79,4400,14.8,4S1P,25,32.0,147.0,50.0,497.0,27.0
81,81,81,81,81,4600,7.4,2S2P,60,25.0,95.0,46.5,224.0,10.0
82,82,82,82,82,4800,7.4,2S3P,25,25.0,69.0,47.0,280.0,10.0
83,83,83,83,83,5000,7.4,2S1P,25,23.0,132.0,42.0,282.0,10.0
84,84,84,84,84,5000,7.4,2S1P,50,25.0,139.0,47.0,304.0,10.0
85,85,85,85,85,5000,7.4,2S1P,50,24.0,138.0,47.0,294.0,10.0
86,86,86,86,86,5000,7.4,2S1P,50,21.3,136.5,43.3,266.0,10.0
87,87,87,87,87,5000,11.1,3S1P,25,26.0,151.0,46.0,399.0,18.0
88,88,88,88,88,5000,11.1,3S1P,45,23.0,154.0,46.0,373.0,18.0
89,89,89,89,89,5000,11.1,3S1P,50,24.0,155.3,46.3,380.0,18.0
90,90,90,90,90,5000,14.8,4S1P,45,30.0,154.0,46.0,480.0,27.0
91,91,91,91,91,5000,14.8,4S1P,50,50.0,138.0,46.0,571.0,27.0
96,96,96,96,96,5100,7.4,2S3P,35,25.0,70.0,47.0,317.0,10.0
97,97,97,97,97,5100,11.1,3S1P,10,26.0,137.0,42.0,334.0,18.0
98,98,98,98,98,5300,7.4,2S1P,65,26.0,139.0,47.0,326.0,10.0
99,99,99,99,99,5300,11.1,3S1P,30,32.0,137.0,42.0,408.0,18.0
100,100,100,100,100,5300,11.1,3S1P,35,34.1,138.0,44.0,429.0,18.0
101,101,101,101,101,5500,11.1,3S1P,45,32.0,133.5,42.0,397.0,18.0
102,102,102,102,102,5500,14.8,4S1P,45,42.0,135.5,42.0,526.0,27.0
106,106,106,106,106,5700,7.4,2S3P,50,25.0,70.0,47.0,316.0,10.0
107,107,107,107,107,5700,7.4,2S3P,50,25.0,70.0,47.0,316.0,10.0
108,108,108,108,108,6000,7.4,2S1P,70,26.0,138.0,46.0,336.0,10.0
109,109,109,109,109,6000,7.4,2S1P,70,25.1,138.1,46.32,330.9,10.0
111,111,111,111,111,6200,14.8,4S1P,25,41.0,146.0,46.0,585.0,27.0
114,114,114,114,114,6500,7.4,2S1P,50,26.0,139.0,47.0,330.0,10.0
115,115,115,115,115,6600,14.8,4S2P,35,29.0,136.0,85.0,713.0,27.0
116,116,116,116,116,6750,14.8,4S1P,25,45.0,137.0,42.0,600.0,27.0
117,117,117,117,117,7000,3.7,1S2P,50,19.0,93.0,47.0,147.0,5.0
118,118,118,118,118,7000,7.4,2S2P,50,25.0,138.5,46.5,316.0,10.0
121,121,121,121,121,7200,7.4,2S1P,70,25.0,138.0,47.0,315.0,10.0
122,122,122,122,122,7200,7.4,2S1P,70,26.0,139.0,47.0,345.0,10.0
123,123,123,123,123,7200,7.4,2S1P,70,25.07,138.35,46.54,359.3,10.0
124,124,124,124,124,7200,14.8,4S1P,70,49.0,138.5,46.5,617.0,27.0
125,125,125,125,125,7600,7.4,2S2P,50,29.0,153.0,47.0,391.0,10.0
126,126,126,126,126,8000,14.8,4S1P,15,41.0,161.0,47.0,650.0,27.0
130,130,130,130,130,10000,14.8,4S1P,25,39.0,169.0,65.0,940.0,27.0
140,140,140,140,140,16000,14.8,4S1P,15,44.0,180.0,74.0,1241.0,27.0
144,144,144,144,144,22000,14.8,4S1P,25,43.0,204.0,90.0,1711.0,27.0