Folder: YAD/Aldo/Propulsion/Datasets/Results (part 3)

File: ThrustFilteredCombinations.csv
,Capacity (mah),Nominal voltage (V),Cells configuration,Discharge (C),Battery height (mm),Bettry length (mm),Battery width (mm),Battery weight (g),Battery price (€),Motor name,Shaft diameter (mm),Motor diameter (mm),Motor height (mm),Magnetic poles,KV (rpm/V),Motor weight (g),No load current @10V (A),Resistance (Ohm),Motor price (€),Propeller Name,Propeller diameter (in),Propeller pitch (in),Propeller weight (g),Propeller material,Propeller price (€),Total weight (g),Total price (€),Peak rotational speed (rpm),Peak torque (Nm),Peak current (A),Peak thrust (kgf),Total thrust (kgf),Hovering rotational speed (rpm),Hovering torque (Nm),Hovering current (A),Hovering PWM,Hovering time (m)
24,300,7.4,2S1P,25,13.5,51.5,19.0,20.0,20.0,DYS D2225-12,3.175,22.0,25.0,,2000,32.0,,0.143,,6030 Carbon Nylon,6.0,3.0,2.22,Carbon Nylon,1.5,156.88,,13557.7,0.0207394,4.34366,0.234726,0.938902,,,,,
25,300,7.4,2S1P,25,13.5,51.5,19.0,20.0,20.0,DYS D2225-12,3.175,22.0,25.0,,2000,32.0,,0.143,,Gemfan 5040 R,5.0,4.0,3.0,ABS,,160.0,,13427.1,0.0229206,4.80047,0.218009,0.872034,,,,,
26,300,7.4,2S1P,25,13.5,51.5,19.0,20.0,20.0,DYS D2225-12,3.175,22.0,25.0,,2000,32.0,,0.143,,6045 plastic,6.0,4.5,6.0,Plastic,,172.0,,11977.1,0.0471277,9.87041,0.355709,1.42283,,,,,
27,300,7.4,2S1P,25,13.5,51.5,19.0,20.0,20.0,DYS D2225-12,3.175,22.0,25.0,,2000,32.0,,0.143,,Gemfan Hurricane 51499,5.1,4.99,5.2,Poly Carbonate,,168.8,,12512.7,0.0381849,7.99742,0.28767,1.15068,5555.01,0.00850074,1.78039,0.409743,2.52753
28,300,7.4,2S1P,25,13.5,51.5,19.0,20.0,20.0,DYS D2225-12,3.175,22.0,25.0,,2000,32.0,,0.143,,Carbon Fiber 5030,5.0,3.0,2.18,Carbon Fiber,,156.72,,14087.7,0.0118912,2.49048,0.150587,0.602348,,,,,
29,300,7.4,2S1P,25,13.5,51.5,19.0,20.0,20.0,DYS D2225-12,3.175,22.0,25.0,,2000,32.0,,0.143,,DALPROP 6040,6.0,4.0,4.32,Nylon,,165.28,,12536.1,0.0377956,7.91589,0.320992,1.28397,5250.18,0.00755382,1.58207,0.385315,2.84438
30,300,7.4,2S1P,25,13.5,51.5,19.0,20.0,20.0,DYS D2225-12,3.175,22.0,25.0,,2000,32.0,,0.143,,Gemfan 6030 Thick hub,6.0,3.0,5.23,Plastic,,168.92,,13557.7,0.0207394,4.34366,0.234726,0.938902,,,,,
31,300,7.4,2S1P,25,13.5,51.5,19.0,20.0,20.0,DYS D2225-12,3.175,22.0,25.0,,2000,32.0,,0.143,,Gemfan 5050 3-Blades BN,5.0,5.0,5.0,Poly Carbonate,,168.0,,12618.5,0.0364186,7.6275,0.277218,1.10887,5713.35,0.00840824,1.76102,0.420068,2.55534
32,300,7.4,2S1P,25,13.5,51.5,19.0,20.0,20.0,DYS D2225-12,3.175,22.0,25.0,,2000,32.0,,0.143,,KingKong 6040,6.0,4.0,3.38,Plastic,,161.52,,12536.1,0.0377956,7.91589,0.320992,1.28397,5250.18,0.00755382,1.58207,0.385315,2.84438
33,300,7.4,2S1P,25,13.5,51.5,19.0,20.0,20.0,DYS D2225-12,3.175,22.0,25.0,,2000,32.0,,0.143,,Quanum Carbon Fiber Propeller 6045 Self-Locking,6.0,4.5,6.78,Carbon Fiber,,175.12,,11977.1,0.0471277,9.87041,0.355709,1.42283,,,,,
34,300,7.4,2S1P,25,13.5,51.5,19.0,20.0,20.0,DYS D2225-12,3.175,22.0,25.0,,2000,32.0,,0.143,,T-Motor 5143 Ultra-Light,5.1,4.3,3.7,Poly Carbonate,,162.8,,13105.3,0.0282924,5.92554,0.247321,0.989284,,,,,
36,300,7.4,2S1P,25,13.5,51.5,19.0,20.0,20.0,DYS D2225-15,3.175,22.0,25.0,,1600,32.0,,0.203,,6030 Carbon Nylon,6.0,3.0,2.22,Carbon Nylon,1.5,156.88,,11065,0.0142416,2.38621,0.160205,0.640819,,,,,
38,300,7.4,2S1P,25,13.5,51.5,19.0,20.0,20.0,DYS D2225-15,3.175,22.0,25.0,,1600,32.0,,0.203,,6045 plastic,6.0,4.5,6.0,Plastic,,172.0,,10002.3,0.0337686,5.65798,0.253503,1.01401,,,,,
39,300,7.4,2S1P,25,13.5,51.5,19.0,20.0,20.0,DYS D2225-15,3.175,22.0,25.0,,1600,32.0,,0.203,,Gemfan Hurricane 51499,5.1,4.99,5.2,Poly Carbonate,,168.8,,10371.5,0.0269836,4.52114,0.202142,0.808569,5555.01,0.00850074,1.42431,0.508246,3.15942
41,300,7.4,2S1P,25,13.5,51.5,19.0,20.0,20.0,DYS D2225-15,3.175,22.0,25.0,,1600,32.0,,0.203,,DALPROP 6040,6.0,4.0,4.32,Nylon,,165.28,,10387.4,0.026692,4.47229,0.225416,0.901664,,,,,
42,300,7.4,2S1P,25,13.5,51.5,19.0,20.0,20.0,DYS D2225-15,3.175,22.0,25.0,,1600,32.0,,0.203,,Gemfan 6030 Thick hub,6.0,3.0,5.23,Plastic,,168.92,,11065,0.0142416,2.38621,0.160205,0.640819,,,,,
43,300,7.4,2S1P,25,13.5,51.5,19.0,20.0,20.0,DYS D2225-15,3.175,22.0,25.0,,1600,32.0,,0.203,,Gemfan 5050 3-Blades BN,5.0,5.0,5.0,Poly Carbonate,,168.0,,10443.4,0.0256633,4.29993,0.194243,0.776974,5713.35,0.00840824,1.40881,0.521194,3.19417
44,300,7.4,2S1P,25,13.5,51.5,19.0,20.0,20.0,DYS D2225-15,3.175,22.0,25.0,,1600,32.0,,0.203,,KingKong 6040,6.0,4.0,3.38,Plastic,,161.52,,10387.4,0.026692,4.47229,0.225416,0.901664,,,,,
45,300,7.4,2S1P,25,13.5,51.5,19.0,20.0,20.0,DYS D2225-15,3.175,22.0,25.0,,1600,32.0,,0.203,,Quanum Carbon Fiber Propeller 6045 Self-Locking,6.0,4.5,6.78,Carbon Fiber,,175.12,,10002.3,0.0337686,5.65798,0.253503,1.01401,,,,,
46,300,7.4,2S1P,25,13.5,51.5,19.0,20.0,20.0,DYS D2225-15,3.175,22.0,25.0,,1600,32.0,,0.203,,T-Motor 5143 Ultra-Light,5.1,4.3,3.7,Poly Carbonate,,162.8,,10769.2,0.0196759,3.29672,0.170989,0.683955,,,,,
216,300,7.4,2S1P,25,13.5,51.5,19.0,20.0,20.0,DYS D2822-8,3.175,28.0,22.0,,2600,38.0,,0.044,,6030 Carbon Nylon,6.0,3.0,2.22,Carbon Nylon,1.5,180.88,,18133.7,0.0355182,9.6706,0.405512,1.62205,6706.65,0.0056401,1.53564,0.357709,2.93038
217,300,7.4,2S1P,25,13.5,51.5,19.0,20.0,20.0,DYS D2822-8,3.175,28.0,22.0,,2600,38.0,,0.044,,Gemfan 5040 R,5.0,4.0,3.0,ABS,,184.0,,18010.8,0.0394635,10.7448,0.378679,1.51471,6908.24,0.00670332,1.82512,0.369908,2.46559
218,300,7.4,2S1P,25,13.5,51.5,19.0,20.0,20.0,DYS D2822-8,3.175,28.0,22.0,,2600,38.0,,0.044,,6045 plastic,6.0,4.5,6.0,Plastic,,196.0,,16565.3,0.0858711,23.3803,0.654471,2.61789,,,,,
219,300,7.4,2S1P,25,13.5,51.5,19.0,20.0,20.0,DYS D2822-8,3.175,28.0,22.0,,2600,38.0,,0.044,,Gemfan Hurricane 51499,5.1,4.99,5.2,Poly Carbonate,,192.8,,17116.6,0.0681727,18.5615,0.518437,2.07375,5555.01,0.00850074,2.31451,0.302484,1.94426
220,300,7.4,2S1P,25,13.5,51.5,19.0,20.0,20.0,DYS D2822-8,3.175,28.0,22.0,,2600,38.0,,0.044,,Carbon Fiber 5030,5.0,3.0,2.18,Carbon Fiber,,180.72,,18619.5,0.0199209,5.4239,0.254394,1.01758,8824.67,0.00500508,1.36274,0.466765,3.30217
221,300,7.4,2S1P,25,13.5,51.5,19.0,20.0,20.0,DYS D2822-8,3.175,28.0,22.0,,2600,38.0,,0.044,,DALPROP 6040,6.0,4.0,4.32,Nylon,,189.28,,17140.1,0.0674169,18.3557,0.57796,2.31184,5250.18,0.00755382,2.05669,0.285108,2.18798
222,300,7.4,2S1P,25,13.5,51.5,19.0,20.0,20.0,DYS D2822-8,3.175,28.0,22.0,,2600,38.0,,0.044,,Gemfan 6030 Thick hub,6.0,3.0,5.23,Plastic,,192.92,,18133.7,0.0355182,9.6706,0.405512,1.62205,6706.65,0.0056401,1.53564,0.357709,2.93038
223,300,7.4,2S1P,25,13.5,51.5,19.0,20.0,20.0,DYS D2822-8,3.175,28.0,22.0,,2600,38.0,,0.044,,Gemfan 5050 3-Blades BN,5.0,5.0,5.0,Poly Carbonate,,192.0,,17223.1,0.0647533,17.6305,0.497523,1.99009,5713.35,0.00840824,2.28932,0.310564,1.96565
224,300,7.4,2S1P,25,13.5,51.5,19.0,20.0,20.0,DYS D2822-8,3.175,28.0,22.0,,2600,38.0,,0.044,,KingKong 6040,6.0,4.0,3.38,Plastic,,185.52,,17140.1,0.0674169,18.3557,0.57796,2.31184,5250.18,0.00755382,2.05669,0.285108,2.18798
225,300,7.4,2S1P,25,13.5,51.5,19.0,20.0,20.0,DYS D2822-8,3.175,28.0,22.0,,2600,38.0,,0.044,,Quanum Carbon Fiber Propeller 6045 Self-Locking,6.0,4.5,6.78,Carbon Fiber,,199.12,,16565.3,0.0858711,23.3803,0.654471,2.61789,,,,,
226,300,7.4,2S1P,25,13.5,51.5,19.0,20.0,20.0,DYS D2822-8,3.175,28.0,22.0,,2600,38.0,,0.044,,T-Motor 5143 Ultra-Light,5.1,4.3,3.7,Poly Carbonate,,186.8,,17702.9,0.0493486,13.4362,0.435296,1.74118,6305.09,0.00730837,1.98986,0.339539,2.26146
[...]
116054,7000,3.7,1S2P,50,19.0,93.0,47.0,147.0,,EMAX ECO Micro Series 1404,1.5,18.8,19.75,9N12P,6000,8.6,1.0,0.12,13.0,6045 plastic,6.0,4.5,6.0,Plastic,,205.4,,9175.96,0.0287895,18.089,0.215566,0.862264,4749.42,0.0085136,5.34925,0.387427,19.6289
116055,7000,3.7,1S2P,50,19.0,93.0,47.0,147.0,,EMAX ECO Micro Series 1404,1.5,18.8,19.75,9N12P,6000,8.6,1.0,0.12,13.0,Gemfan Hurricane 51499,5.1,4.99,5.2,Poly Carbonate,,202.2,,10252,0.0264109,16.5945,0.197784,0.791135,5555.01,0.00850074,5.34117,0.423453,19.6586
116056,7000,3.7,1S2P,50,19.0,93.0,47.0,147.0,,EMAX ECO Micro Series 1404,1.5,18.8,19.75,9N12P,6000,8.6,1.0,0.12,13.0,Carbon Fiber 5030,5.0,3.0,2.18,Carbon Fiber,,190.12,,15658.6,0.0144597,9.08532,0.183697,0.734786,8824.67,0.00500506,3.14476,0.4995,33.3888
116057,7000,3.7,1S2P,50,19.0,93.0,47.0,147.0,,EMAX ECO Micro Series 1404,1.5,18.8,19.75,9N12P,6000,8.6,1.0,0.12,13.0,DALPROP 6040,6.0,4.0,4.32,Nylon,,198.68,,10303.9,0.0262962,16.5224,0.22202,0.88808,5250.18,0.00755381,4.74619,0.390425,22.123
116058,7000,3.7,1S2P,50,19.0,93.0,47.0,147.0,,EMAX ECO Micro Series 1404,1.5,18.8,19.75,9N12P,6000,8.6,1.0,0.12,13.0,Gemfan 6030 Thick hub,6.0,3.0,5.23,Plastic,,202.32,,13231.3,0.0198252,12.4565,0.224214,0.896856,,,,,
116059,7000,3.7,1S2P,50,19.0,93.0,47.0,147.0,,EMAX ECO Micro Series 1404,1.5,18.8,19.75,9N12P,6000,8.6,1.0,0.12,13.0,Gemfan 5050 3-Blades BN,5.0,5.0,5.0,Poly Carbonate,,201.4,,10491.3,0.0258818,16.262,0.195924,0.783696,5713.35,0.00840824,5.28305,0.4287,19.8749
116060,7000,3.7,1S2P,50,19.0,93.0,47.0,147.0,,EMAX ECO Micro Series 1404,1.5,18.8,19.75,9N12P,6000,8.6,1.0,0.12,13.0,KingKong 6040,6.0,4.0,3.38,Plastic,,194.92,,10303.9,0.0262962,16.5224,0.22202,0.88808,5250.18,0.00755381,4.74619,0.390425,22.123
116062,7000,3.7,1S2P,50,19.0,93.0,47.0,147.0,,EMAX ECO Micro Series 1404,1.5,18.8,19.75,9N12P,6000,8.6,1.0,0.12,13.0,T-Motor 5143 Ultra-Light,5.1,4.3,3.7,Poly Carbonate,,196.2,,11746.7,0.0231068,14.5184,0.201329,0.805314,6305.09,0.00730837,4.59199,0.432942,22.8659
116076,7000,3.7,1S2P,50,19.0,93.0,47.0,147.0,,EMAX ECO Micro Series 1106,2.0,14.2,19.9,9N12P,6000,6.7,1.2,0.19,13.0,6030 Carbon Nylon,6.0,3.0,2.22,Carbon Nylon,1.5,182.68,,11407.3,0.0150676,9.46724,0.169651,0.678605,6706.65,0.0056401,3.54378,0.484079,29.6294
116078,7000,3.7,1S2P,50,19.0,93.0,47.0,147.0,,EMAX ECO Micro Series 1106,2.0,14.2,19.9,9N12P,6000,6.7,1.2,0.19,13.0,6045 plastic,6.0,4.5,6.0,Plastic,,197.8,,7610.59,0.0203682,12.7977,0.151657,0.606629,4749.42,0.0085136,5.34925,0.488629,19.6289
116081,7000,3.7,1S2P,50,19.0,93.0,47.0,147.0,,EMAX ECO Micro Series 1106,2.0,14.2,19.9,9N12P,6000,6.7,1.2,0.19,13.0,DALPROP 6040,6.0,4.0,4.32,Nylon,,191.08,,8630.25,0.0189447,11.9033,0.159102,0.636409,5250.18,0.00755377,4.74614,0.480215,22.1232
116082,7000,3.7,1S2P,50,19.0,93.0,47.0,147.0,,EMAX ECO Micro Series 1106,2.0,14.2,19.9,9N12P,6000,6.7,1.2,0.19,13.0,Gemfan 6030 Thick hub,6.0,3.0,5.23,Plastic,,194.72,,11407.3,0.0150676,9.46724,0.169651,0.678605,6706.65,0.0056401,3.54378,0.484079,29.6294
116084,7000,3.7,1S2P,50,19.0,93.0,47.0,147.0,,EMAX ECO Micro Series 1106,2.0,14.2,19.9,9N12P,6000,6.7,1.2,0.19,13.0,KingKong 6040,6.0,4.0,3.38,Plastic,,187.32,,8630.25,0.0189447,11.9033,0.159102,0.636409,5250.18,0.00755377,4.74614,0.480215,22.1232
116085,7000,3.7,1S2P,50,19.0,93.0,47.0,147.0,,EMAX ECO Micro Series 1106,2.0,14.2,19.9,9N12P,6000,6.7,1.2,0.19,13.0,Quanum Carbon Fiber Propeller 6045 Self-Locking,6.0,4.5,6.78,Carbon Fiber,,200.92,,7610.59,0.0203682,12.7977,0.151657,0.606629,4749.42,0.0085136,5.34925,0.488629,19.6289

File: WeightFilteredCombinations.csv
,Capacity (mah),Nominal voltage (V),Cells configuration,Discharge (C),Battery height (mm),Bettry length (mm),Battery width (mm),Battery weight (g),Motor name,Shaft diameter (mm),Motor diameter (mm),Motor height (mm),Magnetic poles,KV (rpm/V),Motor weight (g),No load current (A),Resistance (Ohm),Propeller Name,Propeller diameter (in),Propeller pitch (in),Propeller weight (g),Propeller material,Total weight (g),Peak rotational speed (rpm),Peak torque (Nm),Peak current (A),Peak thrust (kgf),Total thrust (kgf)
0,300,7.4,2S1P,25,13.5,51.5,19.0,20.0,DYS D1410,,14.0,10.5,,4000,5.0,,,6030 Carbon Nylon,6.0,3.0,2.22,Carbon Nylon,48.88,,,,,
1,300,7.4,2S1P,25,13.5,51.5,19.0,20.0,DYS D1410,,14.0,10.5,,4000,5.0,,,Gemfan 5040 R,5.0,4.0,3.0,ABS,52.0,,,,,
2,300,7.4,2S1P,25,13.5,51.5,19.0,20.0,DYS D1410,,14.0,10.5,,4000,5.0,,,6045 plastic,6.0,4.5,6.0,Plastic,64.0,,,,,
3,300,7.4,2S1P,25,13.5,51.5,19.0,20.0,DYS D1410,,14.0,10.5,,4000,5.0,,,Gemfan Hurricane 51499,5.1,4.99,5.2,Poly Carbonate,60.8,,,,,
4,300,7.4,2S1P,25,13.5,51.5,19.0,20.0,DYS D1410,,14.0,10.5,,4000,5.0,,,Carbon Fiber 5030,5.0,3.0,2.18,Carbon Fiber,48.72,,,,,
5,300,7.4,2S1P,25,13.5,51.5,19.0,20.0,DYS D1410,,14.0,10.5,,4000,5.0,,,DALPROP 6040,6.0,4.0,4.32,Nylon,57.28,,,,,
6,300,7.4,2S1P,25,13.5,51.5,19.0,20.0,DYS D1410,,14.0,10.5,,4000,5.0,,,Gemfan 6030 Thick hub,6.0,3.0,5.23,Plastic,60.92,,,,,
7,300,7.4,2S1P,25,13.5,51.5,19.0,20.0,DYS D1410,,14.0,10.5,,4000,5.0,,,Gemfan 5050 3-Blades BN,5.0,5.0,5.0,Poly Carbonate,60.0,,,,,
8,300,7.4,2S1P,25,13.5,51.5,19.0,20.0,DYS D1410,,14.0,10.5,,4000,5.0,,,KingKong 6040,6.0,4.0,3.38,Plastic,53.52,,,,,
9,300,7.4,2S1P,25,13.5,51.5,19.0,20.0,DYS D1410,,14.0,10.5,,4000,5.0,,,Quanum Carbon Fiber Propeller 6045 Self-Locking,6.0,4.5,6.78,Carbon Fiber,67.12,,,,,
10,300,7.4,2S1P,25,13.5,51.5,19.0,20.0,DYS D1410,,14.0,10.5,,4000,5.0,,,T-Motor 5143 Ultra-Light,5.1,4.3,3.7,Poly Carbonate,54.8,,,,,
11,300,7.4,2S1P,25,13.5,51.5,19.0,20.0,DYS D1410,,14.0,10.5,,4000,5.0,,,Gemfan 3052 - Flash,3.0,5.2,1.6,Poly Carbonate,46.4,,,,,
12,300,7.4,2S1P,25,13.5,51.5,19.0,20.0,DYS D1410,,14.0,10.5,,3500,5.0,,,6030 Carbon Nylon,6.0,3.0,2.22,Carbon Nylon,48.88,,,,,
13,300,7.4,2S1P,25,13.5,51.5,19.0,20.0,DYS D1410,,14.0,10.5,,3500,5.0,,,Gemfan 5040 R,5.0,4.0,3.0,ABS,52.0,,,,,
14,300,7.4,2S1P,25,13.5,51.5,19.0,20.0,DYS D1410,,14.0,10.5,,3500,5.0,,,6045 plastic,6.0,4.5,6.0,Plastic,64.0,,,,,
15,300,7.4,2S1P,25,13.5,51.5,19.0,20.0,DYS D1410,,14.0,10.5,,3500,5.0,,,Gemfan Hurricane 51499,5.1,4.99,5.2,Poly Carbonate,60.8,,,,,
16,300,7.4,2S1P,25,13.5,51.5,19.0,20.0,DYS D1410,,14.0,10.5,,3500,5.0,,,Carbon Fiber 5030,5.0,3.0,2.18,Carbon Fiber,48.72,,,,,
17,300,7.4,2S1P,25,13.5,51.5,19.0,20.0,DYS D1410,,14.0,10.5,,3500,5.0,,,DALPROP 6040,6.0,4.0,4.32,Nylon,57.28,,,,,
18,300,7.4,2S1P,25,13.5,51.5,19.0,20.0,DYS D1410,,14.0,10.5,,3500,5.0,,,Gemfan 6030 Thick hub,6.0,3.0,5.23,Plastic,60.92,,,,,
19,300,7.4,2S1P,25,13.5,51.5,19.0,20.0,DYS D1410,,14.0,10.5,,3500,5.0,,,Gemfan 5050 3-Blades BN,5.0,5.0,5.0,Poly Carbonate,60.0,,,,,
20,300,7.4,2S1P,25,13.5,51.5,19.0,20.0,DYS D1410,,14.0,10.5,,3500,5.0,,,KingKong 6040,6.0,4.0,3.38,Plastic,53.52,,,,,
21,300,7.4,2S1P,25,13.5,51.5,19.0,20.0,DYS D1410,,14.0,10.5,,3500,5.0,,,Quanum Carbon Fiber Propeller 6045 Self-Locking,6.0,4.5,6.78,Carbon Fiber,67.12,,,,,
22,300,7.4,2S1P,25,13.5,51.5,19.0,20.0,DYS D1410,,14.0,10.5,,3500,5.0,,,T-Motor 5143 Ultra-Light,5.1,4.3,3.7,Poly Carbonate,54.8,,,,,
23,300,7.4,2S1P,25,13.5,51.5,19.0,20.0,DYS D1410,,14.0,10.5,,3500,5.0,,,Gemfan 3052 - Flash,3.0,5.2,1.6,Poly Carbonate,46.4,,,,,
24,300,7.4,2S1P,25,13.5,51.5,19.0,20.0,DYS D2225-12,3.175,22.0,25.0,,2000,32.0,,0.143,6030 Carbon Nylon,6.0,3.0,2.22,Carbon Nylon,156.88,13557.7,0.0207394,4.34366,0.234726,0.938902
25,300,7.4,2S1P,25,13.5,51.5,19.0,20.0,DYS D2225-12,3.175,22.0,25.0,,2000,32.0,,0.143,Gemfan 5040 R,5.0,4.0,3.0,ABS,160.0,13427.1,0.0229206,4.80047,0.218009,0.872034
26,300,7.4,2S1P,25,13.5,51.5,19.0,20.0,DYS D2225-12,3.175,22.0,25.0,,2000,32.0,,0.143,6045 plastic,6.0,4.5,6.0,Plastic,172.0,11977.1,0.0471277,9.87041,0.355709,1.42283
27,300,7.4,2S1P,25,13.5,51.5,19.0,20.0,DYS D2225-12,3.175,22.0,25.0,,2000,32.0,,0.143,Gemfan Hurricane 51499,5.1,4.99,5.2,Poly Carbonate,168.8,12512.7,0.0381849,7.99742,0.28767,1.15068
28,300,7.4,2S1P,25,13.5,51.5,19.0,20.0,DYS D2225-12,3.175,22.0,25.0,,2000,32.0,,0.143,Carbon Fiber 5030,5.0,3.0,2.18,Carbon Fiber,156.72,14087.7,0.0118912,2.49048,0.150587,0.602348
29,300,7.4,2S1P,25,13.5,51.5,19.0,20.0,DYS D2225-12,3.175,22.0,25.0,,2000,32.0,,0.143,DALPROP 6040,6.0,4.0,4.32,Nylon,165.28,12536.1,0.0377956,7.91589,0.320992,1.28397
30,300,7.4,2S1P,25,13.5,51.5,19.0,20.0,DYS D2225-12,3.175,22.0,25.0,,2000,32.0,,0.143,Gemfan 6030 Thick hub,6.0,3.0,5.23,Plastic,168.92,13557.7,0.0207394,4.34366,0.234726,0.938902
31,300,7.4,2S1P,25,13.5,51.5,19.0,20.0,DYS D2225-12,3.175,22.0,25.0,,2000,32.0,,0.143,Gemfan 5050 3-Blades BN,5.0,5.0,5.0,Poly Carbonate,168.0,12618.5,0.0364186,7.6275,0.277218,1.10887
32,300,7.4,2S1P,25,13.5,51.5,19.0,20.0,DYS D2225-12,3.175,22.0,25.0,,2000,32.0,,0.143,KingKong 6040,6.0,4.0,3.38,Plastic,161.52,12536.1,0.0377956,7.91589,0.320992,1.28397
33,300,7.4,2S1P,25,13.5,51.5,19.0,20.0,DYS D2225-12,3.175,22.0,25.0,,2000,32.0,,0.143,Quanum Carbon Fiber Propeller 6045 Self-Locking,6.0,4.5,6.78,Carbon Fiber,175.12,11977.1,0.0471277,9.87041,0.355709,1.42283
34,300,7.4,2S1P,25,13.5,51.5,19.0,20.0,DYS D2225-12,3.175,22.0,25.0,,2000,32.0,,0.143,T-Motor 5143 Ultra-Light,5.1,4.3,3.7,Poly Carbonate,162.8,13105.3,0.0282924,5.92554,0.247321,0.989284
35,300,7.4,2S1P,25,13.5,51.5,19.0,20.0,DYS D2225-12,3.175,22.0,25.0,,2000,32.0,,0.143,Gemfan 3052 - Flash,3.0,5.2,1.6,Poly Carbonate,154.4,14276.5,0.00873908,1.83031,0.0877076,0.35083
36,300,7.4,2S1P,25,13.5,51.5,19.0,20.0,DYS D2225-15,3.175,22.0,25.0,,1600,32.0,,0.203,6030 Carbon Nylon,6.0,3.0,2.22,Carbon Nylon,156.88,11065,0.0142416,2.38621,0.160205,0.640819
37,300,7.4,2S1P,25,13.5,51.5,19.0,20.0,DYS D2225-15,3.175,22.0,25.0,,1600,32.0,,0.203,Gemfan 5040 R,5.0,4.0,3.0,ABS,160.0,10980.3,0.0157977,2.64693,0.149356,0.597423
38,300,7.4,2S1P,25,13.5,51.5,19.0,20.0,DYS D2225-15,3.175,22.0,25.0,,1600,32.0,,0.203,6045 plastic,6.0,4.5,6.0,Plastic,172.0,10002.3,0.0337686,5.65798,0.253503,1.01401
39,300,7.4,2S1P,25,13.5,51.5,19.0,20.0,DYS D2225-15,3.175,22.0,25.0,,1600,32.0,,0.203,Gemfan Hurricane 51499,5.1,4.99,5.2,Poly Carbonate,168.8,10371.5,0.0269836,4.52114,0.202142,0.808569
40,300,7.4,2S1P,25,13.5,51.5,19.0,20.0,DYS D2225-15,3.175,22.0,25.0,,1600,32.0,,0.203,Carbon Fiber 5030,5.0,3.0,2.18,Carbon Fiber,156.72,11402.4,0.00804103,1.34729,0.101186,0.404744
41,300,7.4,2S1P,25,13.5,51.5,19.0,20.0,DYS D2225-15,3.175,22.0,25.0,,1600,32.0,,0.203,DALPROP 6040,6.0,4.0,4.32,Nylon,165.28,10387.4,0.026692,4.47229,0.225416,0.901664
42,300,7.4,2S1P,25,13.5,51.5,19.0,20.0,DYS D2225-15,3.175,22.0,25.0,,1600,32.0,,0.203,Gemfan 6030 Thick hub,6.0,3.0,5.23,Plastic,168.92,11065,0.0142416,2.38621,0.160205,0.640819
43,300,7.4,2S1P,25,13.5,51.5,19.0,20.0,DYS D2225-15,3.175,22.0,25.0,,1600,32.0,,0.203,Gemfan 5050 3-Blades BN,5.0,5.0,5.0,Poly Carbonate,168.0,10443.4,0.0256633,4.29993,0.194243,0.776974
44,300,7.4,2S1P,25,13.5,51.5,19.0,20.0,DYS D2225-15,3.175,22.0,25.0,,1600,32.0,,0.203,KingKong 6040,6.0,4.0,3.38,Plastic,161.52,10387.4,0.026692,4.47229,0.225416,0.901664
[...]
92020,7000,3.7,1S2P,50,19.0,93.0,47.0,147.0,TMOTOR F1103,1.5,14.4,14.0,,8000,5.3,,0.163,Carbon Fiber 5030,5.0,3.0,2.18,Carbon Fiber,176.92,15003.8,0.0133611,11.1934,0.169522,0.67809
92021,7000,3.7,1S2P,50,19.0,93.0,47.0,147.0,TMOTOR F1103,1.5,14.4,14.0,,8000,5.3,,0.163,DALPROP 6040,6.0,4.0,4.32,Nylon,185.48,8680.53,0.0191494,16.0425,0.160849,0.643397
92022,7000,3.7,1S2P,50,19.0,93.0,47.0,147.0,TMOTOR F1103,1.5,14.4,14.0,,8000,5.3,,0.163,Gemfan 6030 Thick hub,6.0,3.0,5.23,Plastic,189.12,11873.5,0.0162265,13.5939,0.18292,0.73168
92023,7000,3.7,1S2P,50,19.0,93.0,47.0,147.0,TMOTOR F1103,1.5,14.4,14.0,,8000,5.3,,0.163,Gemfan 5050 3-Blades BN,5.0,5.0,5.0,Poly Carbonate,188.2,8870.78,0.0189752,15.8966,0.14292,0.571681
92024,7000,3.7,1S2P,50,19.0,93.0,47.0,147.0,TMOTOR F1103,1.5,14.4,14.0,,8000,5.3,,0.163,KingKong 6040,6.0,4.0,3.38,Plastic,181.72,8680.53,0.0191494,16.0425,0.160849,0.643397
92025,7000,3.7,1S2P,50,19.0,93.0,47.0,147.0,TMOTOR F1103,1.5,14.4,14.0,,8000,5.3,,0.163,Quanum Carbon Fiber Propeller 6045 Self-Locking,6.0,4.5,6.78,Carbon Fiber,195.32,7569.7,0.0201662,16.8944,0.150129,0.600515
92026,7000,3.7,1S2P,50,19.0,93.0,47.0,147.0,TMOTOR F1103,1.5,14.4,14.0,,8000,5.3,,0.163,T-Motor 5143 Ultra-Light,5.1,4.3,3.7,Poly Carbonate,183.0,10191.1,0.0177666,14.8841,0.154141,0.616565
92027,7000,3.7,1S2P,50,19.0,93.0,47.0,147.0,TMOTOR F1103,1.5,14.4,14.0,,8000,5.3,,0.163,Gemfan 3052 - Flash,3.0,5.2,1.6,Poly Carbonate,174.6,16758.1,0.0117552,9.84805,0.118547,0.474189
92028,7000,3.7,1S2P,50,19.0,93.0,47.0,147.0,TMOTOR F15,1.5,14.4,13.3,,4500,7.8,,0.197,6030 Carbon Nylon,6.0,3.0,2.22,Carbon Nylon,187.08,10881.6,0.0138081,6.50692,0.155251,0.621002
92029,7000,3.7,1S2P,50,19.0,93.0,47.0,147.0,TMOTOR F15,1.5,14.4,13.3,,4500,7.8,,0.197,Gemfan 5040 R,5.0,4.0,3.0,ABS,190.2,10536,0.0146355,6.89682,0.138196,0.552786
92030,7000,3.7,1S2P,50,19.0,93.0,47.0,147.0,TMOTOR F15,1.5,14.4,13.3,,4500,7.8,,0.197,6045 plastic,6.0,4.5,6.0,Plastic,202.2,7782.38,0.0212269,10.003,0.158157,0.632627
92031,7000,3.7,1S2P,50,19.0,93.0,47.0,147.0,TMOTOR F15,1.5,14.4,13.3,,4500,7.8,,0.197,Gemfan Hurricane 51499,5.1,4.99,5.2,Poly Carbonate,199.0,8628.95,0.0192005,9.048,0.143045,0.57218
92032,7000,3.7,1S2P,50,19.0,93.0,47.0,147.0,TMOTOR F15,1.5,14.4,13.3,,4500,7.8,,0.197,Carbon Fiber 5030,5.0,3.0,2.18,Carbon Fiber,186.92,12605.7,0.00968099,4.56206,0.12219,0.488759
92033,7000,3.7,1S2P,50,19.0,93.0,47.0,147.0,TMOTOR F15,1.5,14.4,13.3,,4500,7.8,,0.197,DALPROP 6040,6.0,4.0,4.32,Nylon,195.48,8669.35,0.0191037,9.00243,0.16046,0.64184
92034,7000,3.7,1S2P,50,19.0,93.0,47.0,147.0,TMOTOR F15,1.5,14.4,13.3,,4500,7.8,,0.197,Gemfan 6030 Thick hub,6.0,3.0,5.23,Plastic,199.12,10881.6,0.0138081,6.50692,0.155251,0.621002
92035,7000,3.7,1S2P,50,19.0,93.0,47.0,147.0,TMOTOR F15,1.5,14.4,13.3,,4500,7.8,,0.197,Gemfan 5050 3-Blades BN,5.0,5.0,5.0,Poly Carbonate,198.2,8815.01,0.0187551,8.83812,0.141235,0.564942
92036,7000,3.7,1S2P,50,19.0,93.0,47.0,147.0,TMOTOR F15,1.5,14.4,13.3,,4500,7.8,,0.197,KingKong 6040,6.0,4.0,3.38,Plastic,191.72,8669.35,0.0191037,9.00243,0.16046,0.64184
92037,7000,3.7,1S2P,50,19.0,93.0,47.0,147.0,TMOTOR F15,1.5,14.4,13.3,,4500,7.8,,0.197,Quanum Carbon Fiber Propeller 6045 Self-Locking,6.0,4.5,6.78,Carbon Fiber,205.32,7782.38,0.0212269,10.003,0.158157,0.632627
92038,7000,3.7,1S2P,50,19.0,93.0,47.0,147.0,TMOTOR F15,1.5,14.4,13.3,,4500,7.8,,0.197,T-Motor 5143 Ultra-Light,5.1,4.3,3.7,Poly Carbonate,193.0,9776.68,0.0164531,7.75332,0.142568,0.57027
92039,7000,3.7,1S2P,50,19.0,93.0,47.0,147.0,TMOTOR F15,1.5,14.4,13.3,,4500,7.8,,0.197,Gemfan 3052 - Flash,3.0,5.2,1.6,Poly Carbonate,184.6,13402.1,0.00777469,3.66374,0.0778809,0.311524