Folder: YAD/Aldo/Propulsion/Datasets/Results

Note: Aldo/Propulsion/README.conv.md
\# Propulsion This subsystem is composed by motors, propellers and ESCs.

\# Requirements The entire propulsion system must generate a thrust of
at least 2 times the weight of the drone, T_tot \> 500 grams. So for a
quadcopter it will consist of 4 units with a thrust of at least 125
grams each.

\# Design

\## Thrust mathematical formula

*T*<sub>*p**r**o**p*</sub>(*I*<sub>*a*</sub>,*ω*) = *V*<sub>*b*</sub> ⋅ *I*<sub>*a*</sub> ⋅ *η*<sub>*p**r**o**p*</sub>
*I*<sub>*a*</sub> can be found solving the following equation:

$$a \\cdot I_a^{\\frac{3}{2}} \\cdot \\eta\_{prop}^{\\frac{3}{2}} + b \\cdot I_a \\cdot \\eta\_{prop} = 0$$
Where: -
*η*<sub>*p**r**o**p*</sub> = *f*(*ω*) = *f*(*V*<sub>*b*</sub>*K*<sub>*V*</sub>) -
$a = - V_b^{\\frac{3}{2}}$ -
$b = V_b^2 \\frac{D\_{prop}}{4} K_V \\tan (\\alpha\_{prop}) \\sqrt{2 \\rho A}$

\### Mathematical steps Given the hypothesis: - The motor resistance can
be considered negligible, so that
*V*<sub>*b*</sub> ≈ *V*<sub>*a*</sub> - Each propeller blade can be
approximated as a plate with a constant pitch and width. \<br\>

Given the following mathematical formulas: -
$\\eta\_{prop} = \\frac{T\_{prop}} {P_e}$ Propeller efficiency -
*P*<sub>*p**r**o**p*</sub> = *T*<sub>*p**r**o**p*</sub>*v*<sub>*p**r**o**p*</sub>
Propeller power -
$v\_{prop} = \\frac{D\_{prop}}{4}\\omega \\tan (\\alpha\_{prop})$
Propeller air velocity - $K_V = \\frac{\\omega} {V_b}$ Motor velocity
constant - *P*<sub>*e*</sub> = *V*<sub>*b*</sub>*I*<sub>*a*</sub>
Electrical power \#### Current equation proof

The current equation can be found by substituting the above formulas in
the following
\[relationship\](https://uav.jreyn.net/quadcopter-design/step-3-static-thrust-and-power):
$$P\_{prop} = \\frac{{T\_{prop}}^{\\frac{3}{2}}} {\\sqrt{2 \\rho A}} \\\\
$$
We can write:
$$T\_{prop} v\_{prop} = \\frac{{(P_e \\eta\_{prop})}^{\\frac{3}{2}}} {\\sqrt{2 \\rho A}} \\\\
P_e \\eta\_{prop} \\frac{D\_{prop}}{4} \\omega \\tan (\\alpha\_{prop}) = \\frac{{(V_b I_a \\eta\_{prop})}^{\\frac{3}{2}}} {\\sqrt{2 \\rho A}} \\\\
V_b I_a \\eta\_{prop} \\frac{D\_{prop}}{4} V_b K_V \\tan (\\alpha\_{prop}) = \\frac{{(V_b I_a \\eta\_{prop})}^{\\frac{3}{2}}} {\\sqrt{2 \\rho A}} \\\\
V_b^2 I_a \\eta\_{prop} \\frac{D\_{prop}}{4} K_V \\tan (\\alpha\_{prop}) \\sqrt{2 \\rho A} = {(V_b I_a \\eta\_{prop})}^{\\frac{3}{2}} \\\\
$$

Gathering the terms and ordering the equation we obtain:
$$a \\cdot I_a^{\\frac{3}{2}} \\cdot \\eta\_{prop}^{\\frac{3}{2}} + b \\cdot I_a \\cdot \\eta\_{prop} = 0$$

File: Best10CustomcostfunctionCombinations.csv
,Unnamed: 0,Unnamed: 0.1,Unnamed: 0.1.1,Unnamed: 0.1.1.1,Unnamed: 0.1.1.1.1,Capacity (mah),Nominal voltage (V),Cells configuration,Discharge (C),Battery height (mm),Bettry length (mm),Battery width (mm),Battery weight (g),Battery price (€),Motor name,Shaft diameter (mm),Motor diameter (mm),Motor height (mm),Magnetic poles,KV (rpm/V),Motor weight (g),No load current @10V (A),Resistance (Ohm),Motor price (€),Propeller Name,Propeller diameter (in),Propeller pitch (in),Propeller weight (g),Propeller material,Propeller price (€),Total weight (g),Total price (€),Peak rotational speed (rpm),Peak torque (Nm),Peak current (A),Peak thrust (kgf),Total thrust (kgf),Hovering rotational speed (rpm),Hovering torque (Nm),Hovering current (A),Hovering PWM,Hovering time (m),Custom cost function
100134,117,117,117,117,117,7000,3.7,1S2P,50,19.0,93.0,47.0,147.0,5.0,TMOTOR F15,1.5,14.4,13.3,,4500,7.8,,0.197,14.0,Gemfan 6030 Thick hub,6.0,3.0,5.23,Plastic,1,199.12,65.0,10881.6,0.0138081,6.50692,0.155251,0.621002,6706.65,0.0056401,2.65784,0.544313,39.5058,0.814815
100128,117,117,117,117,117,7000,3.7,1S2P,50,19.0,93.0,47.0,147.0,5.0,TMOTOR F15,1.5,14.4,13.3,,4500,7.8,,0.197,14.0,6030 Carbon Nylon,6.0,3.0,2.22,Carbon Nylon,1,187.08,65.0,10881.6,0.0138081,6.50692,0.155251,0.621002,6706.65,0.0056401,2.65784,0.544313,39.5058,0.814815
100312,117,117,117,117,117,7000,3.7,1S2P,50,19.0,93.0,47.0,147.0,5.0,EMAX ECO Micro Series 1404,1.5,18.8,19.75,9N12P,6000,8.6,1.0,0.12,13.0,Carbon Fiber 5030,5.0,3.0,2.18,Carbon Fiber,2,190.12,65.0,15658.6,0.0144597,9.08532,0.183697,0.734786,8824.67,0.00500506,3.14476,0.4995,33.3888,0.632202
100332,117,117,117,117,117,7000,3.7,1S2P,50,19.0,93.0,47.0,147.0,5.0,EMAX ECO Micro Series 1106,2.0,14.2,19.9,9N12P,6000,6.7,1.2,0.19,13.0,6030 Carbon Nylon,6.0,3.0,2.22,Carbon Nylon,1,182.68,61.0,11407.3,0.0150676,9.46724,0.169651,0.678605,6706.65,0.0056401,3.54378,0.484079,29.6294,0.569352
100338,117,117,117,117,117,7000,3.7,1S2P,50,19.0,93.0,47.0,147.0,5.0,EMAX ECO Micro Series 1106,2.0,14.2,19.9,9N12P,6000,6.7,1.2,0.19,13.0,Gemfan 6030 Thick hub,6.0,3.0,5.23,Plastic,1,194.72,61.0,11407.3,0.0150676,9.46724,0.169651,0.678605,6706.65,0.0056401,3.54378,0.484079,29.6294,0.569352
100133,117,117,117,117,117,7000,3.7,1S2P,50,19.0,93.0,47.0,147.0,5.0,TMOTOR F15,1.5,14.4,13.3,,4500,7.8,,0.197,14.0,DALPROP 6040,6.0,4.0,4.32,Nylon,1,195.48,65.0,8669.39,0.0191038,9.00238,0.160461,0.641845,5250.18,0.00755382,3.55965,0.504854,29.4973,0.516025
100136,117,117,117,117,117,7000,3.7,1S2P,50,19.0,93.0,47.0,147.0,5.0,TMOTOR F15,1.5,14.4,13.3,,4500,7.8,,0.197,14.0,KingKong 6040,6.0,4.0,3.38,Plastic,1,191.72,65.0,8669.39,0.0191038,9.00238,0.160461,0.641845,5250.18,0.00755382,3.55965,0.504854,29.4973,0.516025
37666,41,41,41,41,41,1800,7.4,2S1P,25,17.3,89.79,30.2,100.06,10.0,DYS D2812-14,3.175,28.0,12.0,,1600,22.0,,0.27,,T-Motor 5143 Ultra-Light,5.1,4.3,3.7,Poly Carbonate,1,202.86,,10484.7,0.0187248,3.13737,0.162593,0.650373,6305.09,0.00730837,1.22453,0.577203,22.0493,0.478862
37664,41,41,41,41,41,1800,7.4,2S1P,25,17.3,89.79,30.2,100.06,10.0,DYS D2812-14,3.175,28.0,12.0,,1600,22.0,,0.27,,KingKong 6040,6.0,4.0,3.38,Plastic,1,201.58,,10029.4,0.0250149,4.19129,0.211031,0.844123,5250.18,0.00755382,1.26565,0.489607,21.3328,0.457474
37661,41,41,41,41,41,1800,7.4,2S1P,25,17.3,89.79,30.2,100.06,10.0,DYS D2812-14,3.175,28.0,12.0,,1600,22.0,,0.27,,DALPROP 6040,6.0,4.0,4.32,Nylon,1,205.34,,10029.4,0.0250149,4.19129,0.211031,0.844123,5250.18,0.00755382,1.26565,0.489607,21.3328,0.457474

File: Best10HoveringtimeCombinations.csv
,Capacity (mah),Nominal voltage (V),Cells configuration,Discharge (C),Battery height (mm),Bettry length (mm),Battery width (mm),Battery weight (g),Battery price (€),Motor name,Shaft diameter (mm),Motor diameter (mm),Motor height (mm),Magnetic poles,KV (rpm/V),Motor weight (g),No load current @10V (A),Resistance (Ohm),Motor price (€),Propeller Name,Propeller diameter (in),Propeller pitch (in),Propeller weight (g),Propeller material,Propeller price (€),Total weight (g),Total price (€),Peak rotational speed (rpm),Peak torque (Nm),Peak current (A),Peak thrust (kgf),Total thrust (kgf),Hovering rotational speed (rpm),Hovering torque (Nm),Hovering current (A),Hovering PWM,Hovering time (m),Custom cost function
68728,3500,7.4,2S1P,60,18.8,92.8,46.5,149.0,30.0,iFlight XING X1404 ,2.0,18.3,12.5,,3000,8.5,,0.28,17.0,Carbon Fiber 5030,5.0,3.0,2.18,Carbon Fiber,2,191.72,106.0,17508.5,0.0177779,5.58509,0.226608,0.906434,8824.67,0.00500503,1.57236,0.457002,33.3892,-1.0393
68730,3500,7.4,2S1P,60,18.8,92.8,46.5,149.0,30.0,iFlight XING X1404 ,2.0,18.3,12.5,,3000,8.5,,0.28,17.0,Gemfan 6030 Thick hub,6.0,3.0,5.23,Plastic,1,203.92,102.0,15330.2,0.0260325,8.17834,0.295719,1.18288,6706.65,0.0056401,1.77189,0.369146,29.6294,-1.15185
68724,3500,7.4,2S1P,60,18.8,92.8,46.5,149.0,30.0,iFlight XING X1404 ,2.0,18.3,12.5,,3000,8.5,,0.28,17.0,6030 Carbon Nylon,6.0,3.0,2.22,Carbon Nylon,1,191.88,102.0,15330.2,0.0260325,8.17834,0.295719,1.18288,6706.65,0.0056401,1.77189,0.369146,29.6294,-1.04767
68812,3500,7.4,2S1P,60,18.8,92.8,46.5,149.0,30.0,EMAX ECO Micro Series 1404,1.5,18.8,19.75,9N12P,3700,8.6,0.5,0.265,13.0,Carbon Fiber 5030,5.0,3.0,2.18,Carbon Fiber,2,192.12,90.0,19295.6,0.0212798,8.24515,0.272038,1.08815,8824.67,0.00500505,1.93926,0.39175,27.0722,-0.810293
68740,3500,7.4,2S1P,60,18.8,92.8,46.5,149.0,30.0,iFlight XING X1404 ,2.0,18.3,12.5,,3800,8.5,,0.28,17.0,Carbon Fiber 5030,5.0,3.0,2.18,Carbon Fiber,2,191.72,106.0,19196,0.0210769,8.38725,0.269403,1.07761,8824.67,0.00500508,1.9917,0.389183,26.3595,-1.24916
68725,3500,7.4,2S1P,60,18.8,92.8,46.5,149.0,30.0,iFlight XING X1404 ,2.0,18.3,12.5,,3000,8.5,,0.28,17.0,Gemfan 5040 R,5.0,4.0,3.0,ABS,1,195.0,102.0,14882.7,0.0277282,8.71107,0.264552,1.05821,6908.24,0.00670332,2.10591,0.390865,24.9299,-1.21496
68736,3500,7.4,2S1P,60,18.8,92.8,46.5,149.0,30.0,iFlight XING X1404 ,2.0,18.3,12.5,,3800,8.5,,0.28,17.0,6030 Carbon Nylon,6.0,3.0,2.22,Carbon Nylon,1,191.88,102.0,16079.9,0.0284365,11.3159,0.323491,1.29397,6706.65,0.00564011,2.2444,0.323424,23.3916,-1.23388
68742,3500,7.4,2S1P,60,18.8,92.8,46.5,149.0,30.0,iFlight XING X1404 ,2.0,18.3,12.5,,3800,8.5,,0.28,17.0,Gemfan 6030 Thick hub,6.0,3.0,5.23,Plastic,1,203.92,102.0,16079.9,0.0284365,11.3159,0.323491,1.29397,6706.65,0.00564011,2.2444,0.323424,23.3916,-1.33807
68734,3500,7.4,2S1P,60,18.8,92.8,46.5,149.0,30.0,iFlight XING X1404 ,2.0,18.3,12.5,,3000,8.5,,0.28,17.0,T-Motor 5143 Ultra-Light,5.1,4.3,3.7,Poly Carbonate,1,197.8,102.0,13888,0.0314975,9.89523,0.275819,1.10328,6305.09,0.00730837,2.29599,0.370888,22.8659,-1.30081
68836,3500,7.4,2S1P,60,18.8,92.8,46.5,149.0,30.0,EMAX ECO Micro Series 1106,2.0,14.2,19.9,9N12P,4500,6.7,0.6,0.3,13.0,Carbon Fiber 5030,5.0,3.0,2.18,Carbon Fiber,2,184.52,90.0,19498.2,0.021695,10.2235,0.277433,1.10973,8824.67,0.00500499,2.3585,0.36062,22.2599,-0.88819

File: Best10TotalpriceCombinations.csv
,Capacity (mah),Nominal voltage (V),Cells configuration,Discharge (C),Battery height (mm),Bettry length (mm),Battery width (mm),Battery weight (g),Battery price (€),Motor name,Shaft diameter (mm),Motor diameter (mm),Motor height (mm),Magnetic poles,KV (rpm/V),Motor weight (g),No load current @10V (A),Resistance (Ohm),Motor price (€),Propeller Name,Propeller diameter (in),Propeller pitch (in),Propeller weight (g),Propeller material,Propeller price (€),Total weight (g),Total price (€),Peak rotational speed (rpm),Peak torque (Nm),Peak current (A),Peak thrust (kgf),Total thrust (kgf),Hovering rotational speed (rpm),Hovering torque (Nm),Hovering current (A),Hovering PWM,Hovering time (m),Custom cost function
1662,450,7.4,2S1P,25,11.0,56.0,31.0,28.0,8.0,TMOTOR V2207 V2.0,4.0,27.5,31.35,,1750,35.1,,0.059,14.0,Gemfan 6030 Thick hub,6.0,3.0,5.23,Plastic,1,189.32,68.0,12607,0.0181293,3.32237,0.204738,0.818951,6706.65,0.0056401,1.0336,0.526129,6.53055,-0.820355
1656,450,7.4,2S1P,25,11.0,56.0,31.0,28.0,8.0,TMOTOR V2207 V2.0,4.0,27.5,31.35,,1750,35.1,,0.059,14.0,6030 Carbon Nylon,6.0,3.0,2.22,Carbon Nylon,1,177.28,68.0,12607,0.0181293,3.32237,0.204738,0.818951,6706.65,0.0056401,1.0336,0.526129,6.53055,-0.716166
68630,3500,7.4,2S1P,60,18.8,92.8,46.5,149.0,30.0,TMOTOR F1103,1.5,14.4,14.0,,8000,5.3,,0.163,12.0,6045 plastic,6.0,4.5,6.0,Plastic,1,194.2,82.0,11493.7,0.0436696,36.5846,0.329201,1.3168,4749.42,0.0085136,7.13234,0.237331,7.36084,-1.20622
68635,3500,7.4,2S1P,60,18.8,92.8,46.5,149.0,30.0,TMOTOR F1103,1.5,14.4,14.0,,8000,5.3,,0.163,12.0,Gemfan 5050 3-Blades BN,5.0,5.0,5.0,Poly Carbonate,1,190.2,82.0,13586.4,0.041754,34.9798,0.318537,1.27415,5713.35,0.00840824,7.04408,0.251669,7.45307,-1.16885
68633,3500,7.4,2S1P,60,18.8,92.8,46.5,149.0,30.0,TMOTOR F1103,1.5,14.4,14.0,,8000,5.3,,0.163,12.0,DALPROP 6040,6.0,4.0,4.32,Nylon,1,187.48,82.0,13277.8,0.0420365,35.2164,0.357626,1.4305,5250.18,0.00755381,6.32826,0.228078,8.29612,-1.12015
68634,3500,7.4,2S1P,60,18.8,92.8,46.5,149.0,30.0,TMOTOR F1103,1.5,14.4,14.0,,8000,5.3,,0.163,12.0,Gemfan 6030 Thick hub,6.0,3.0,5.23,Plastic,1,191.12,82.0,18586.6,0.0371769,31.1452,0.424763,1.69905,6706.65,0.0056401,4.72504,0.217367,11.111,-1.06761
68636,3500,7.4,2S1P,60,18.8,92.8,46.5,149.0,30.0,TMOTOR F1103,1.5,14.4,14.0,,8000,5.3,,0.163,12.0,KingKong 6040,6.0,4.0,3.38,Plastic,1,183.72,82.0,13277.8,0.0420365,35.2164,0.357626,1.4305,5250.18,0.00755381,6.32826,0.228078,8.29612,-1.08761
68629,3500,7.4,2S1P,60,18.8,92.8,46.5,149.0,30.0,TMOTOR F1103,1.5,14.4,14.0,,8000,5.3,,0.163,12.0,Gemfan 5040 R,5.0,4.0,3.0,ABS,1,182.2,82.0,17654.2,0.0380304,31.8602,0.364708,1.45883,6908.24,0.00670332,5.61575,0.240392,9.3487,-1.04303
68638,3500,7.4,2S1P,60,18.8,92.8,46.5,149.0,30.0,TMOTOR F1103,1.5,14.4,14.0,,8000,5.3,,0.163,12.0,T-Motor 5143 Ultra-Light,5.1,4.3,3.7,Poly Carbonate,1,185.0,82.0,15753.8,0.03977,33.3176,0.349579,1.39832,6305.08,0.00730795,6.12195,0.241353,8.5757,-1.09034
68631,3500,7.4,2S1P,60,18.8,92.8,46.5,149.0,30.0,TMOTOR F1103,1.5,14.4,14.0,,8000,5.3,,0.163,12.0,Gemfan Hurricane 51499,5.1,4.99,5.2,Poly Carbonate,1,191.0,82.0,13193,0.0421141,35.2814,0.317776,1.2711,5555.01,0.00850074,7.12156,0.250702,7.37198,-1.17819

File: Best10TotalweightCombinations.csv
,Unnamed: 0,Unnamed: 0.1,Unnamed: 0.1.1,Unnamed: 0.1.1.1,Unnamed: 0.1.1.1.1,Capacity (mah),Nominal voltage (V),Cells configuration,Discharge (C),Battery height (mm),Bettry length (mm),Battery width (mm),Battery weight (g),Battery price (€),Motor name,Shaft diameter (mm),Motor diameter (mm),Motor height (mm),Magnetic poles,KV (rpm/V),Motor weight (g),No load current @10V (A),Resistance (Ohm),Motor price (€),Propeller Name,Propeller diameter (in),Propeller pitch (in),Propeller weight (g),Propeller material,Propeller price (€),Total weight (g),Total price (€),Peak rotational speed (rpm),Peak torque (Nm),Peak current (A),Peak thrust (kgf),Total thrust (kgf),Hovering rotational speed (rpm),Hovering torque (Nm),Hovering current (A),Hovering PWM,Hovering time (m),Custom cost function
6736,6,6,6,6,6,800,7.4,2S1P,40,15.0,57.0,30.0,50.0,10.0,iFlight XING X1404 ,2.0,18.3,12.5,,3000,8.5,,0.28,17.0,Carbon Fiber 5030,5.0,3.0,2.18,Carbon Fiber,2,92.72,86.0,17508.5,0.0177779,5.58509,0.226608,0.906434,8824.67,0.00500503,1.57236,0.457002,7.63182,-0.395993
6748,6,6,6,6,6,800,7.4,2S1P,40,15.0,57.0,30.0,50.0,10.0,iFlight XING X1404 ,2.0,18.3,12.5,,3800,8.5,,0.28,17.0,Carbon Fiber 5030,5.0,3.0,2.18,Carbon Fiber,2,92.72,86.0,19196,0.0210769,8.38725,0.269403,1.07761,8824.67,0.00500508,1.9917,0.389183,6.02502,-0.443962
6732,6,6,6,6,6,800,7.4,2S1P,40,15.0,57.0,30.0,50.0,10.0,iFlight XING X1404 ,2.0,18.3,12.5,,3000,8.5,,0.28,17.0,6030 Carbon Nylon,6.0,3.0,2.22,Carbon Nylon,1,92.88,82.0,15330.2,0.0260325,8.17834,0.295719,1.18288,6706.65,0.0056401,1.77189,0.369146,6.77243,-0.373651
6820,6,6,6,6,6,800,7.4,2S1P,40,15.0,57.0,30.0,50.0,10.0,EMAX ECO Micro Series 1404,1.5,18.8,19.75,9N12P,3700,8.6,0.5,0.265,13.0,Carbon Fiber 5030,5.0,3.0,2.18,Carbon Fiber,2,93.12,70.0,19295.6,0.0212798,8.24515,0.272038,1.08815,8824.67,0.00500505,1.93926,0.39175,6.18793,-0.245029
6738,6,6,6,6,6,800,7.4,2S1P,40,15.0,57.0,30.0,50.0,10.0,iFlight XING X1404 ,2.0,18.3,12.5,,3000,8.5,,0.28,17.0,Gemfan 6030 Thick hub,6.0,3.0,5.23,Plastic,1,104.92,82.0,15330.2,0.0260325,8.17834,0.295719,1.18288,6706.65,0.0056401,1.77189,0.369146,6.77243,-0.477839
11764,11,11,11,11,11,1000,7.4,2S1P,25,14.0,70.0,36.0,70.0,10.0,EMAX ECO Micro Series 1106,2.0,14.2,19.9,9N12P,4500,6.7,0.6,0.3,13.0,Carbon Fiber 5030,5.0,3.0,2.18,Carbon Fiber,2,105.52,70.0,19498.2,0.021695,10.2235,0.277433,1.10973,8824.67,0.00500499,2.3585,0.36062,6.35997,-0.347196
11572,11,11,11,11,11,1000,7.4,2S1P,25,14.0,70.0,36.0,70.0,10.0,TMOTOR F15,1.5,14.4,13.3,,4500,7.8,,0.197,14.0,Carbon Fiber 5030,5.0,3.0,2.18,Carbon Fiber,2,109.92,74.0,21984.1,0.0270875,12.7647,0.347641,1.39056,8824.67,0.00500508,2.35859,0.327794,6.35974,-0.434661
11747,11,11,11,11,11,1000,7.4,2S1P,25,14.0,70.0,36.0,70.0,10.0,EMAX ECO Micro Series 1404,1.5,18.8,19.75,9N12P,3700,8.6,0.5,0.265,13.0,Gemfan 3052 - Flash,3.0,5.2,1.6,Poly Carbonate,1,110.8,66.0,20749.4,0.0174532,6.76246,0.17714,0.708561,11922,0.00626119,2.42598,0.522302,6.18307,-0.348785
7727,7,7,7,7,7,800,11.1,3S1P,40,23.0,52.0,30.0,72.0,18.0,iFlight XING X1404 ,2.0,18.3,12.5,,3000,8.5,,0.28,17.0,Gemfan 3052 - Flash,3.0,5.2,1.6,Poly Carbonate,1,112.4,90.0,26206.1,0.0268817,8.44515,0.274753,1.09901,11922,0.00626119,1.96701,0.407635,6.10063,-0.661388
11680,11,11,11,11,11,1000,7.4,2S1P,25,14.0,70.0,36.0,70.0,10.0,iFlight XING X1404 ,2.0,18.3,12.5,,4600,8.5,,0.28,17.0,Carbon Fiber 5030,5.0,3.0,2.18,Carbon Fiber,2,112.72,86.0,19970.3,0.0226768,10.9237,0.290196,1.16078,8824.67,0.00500508,2.411,0.350471,6.22149,-0.611167